Folder: TiO2-Au

Note: README.md
Photodegradation of methilene blue with TiO2 impregnated with Au via plasma
===========================================================================

Dataset by Debra Jene Kirkconnell Reyes measured at CINVESTAV-Merida.

File: Degussa_P25.dat
# M.B. Degussa P25
# Wavelength(nm) Absorbance(a.u.)
#	A.M. 195 min	A.M. 120 min	A.M. 90 min	A.M. 60 min	A.M. 30 min	A.M. 15 min	A.M. 5 min	A.M. 0 min
199.408	-0.02648	-0.06222	-0.06742	-0.03847	-0.06588	-0.01282	0.01132		0.18922
205.964	-0.03374	-0.05141	-0.0532	-0.03768	-0.04146	-0.03302	0.04645	0.1784
212.516	-0.03717	-0.05533	-0.05075	-0.03806	-0.04305	-0.03485	0.04361	0.17905
219.066	-0.03815	-0.05663	-0.04913	-0.03614	-0.04213	-0.03234	0.0442	0.17348
225.612	-0.03435	-0.05309	-0.04984	-0.04097	-0.04126	-0.0241	0.0434	0.17554
232.155	-0.02286	-0.05065	-0.04663	-0.03556	-0.03559	-0.01665	0.04602	0.17713
238.694	-0.02073	-0.0472	-0.0477	-0.03123	-0.02996	-0.01806	0.0478	0.1817
245.231	-0.02292	-0.04398	-0.04537	-0.03689	-0.0282	-0.01581	0.05164	0.18538
251.764	-0.02112	-0.03997	-0.04256	-0.03445	-0.02434	-0.00981	0.05222	0.17861
258.294	-0.02299	-0.03851	-0.04586	-0.03145	-0.01971	-0.00529	0.05359	0.17436
264.82	-0.02262	-0.03813	-0.04134	-0.02554	-0.01793	0.00187	0.06094	0.19137
271.344	-0.02026	-0.03951	-0.04014	-0.02108	-0.01459	0.00657	0.07409	0.22701
277.863	-0.02087	-0.04022	-0.04103	-0.02476	-0.01088	0.01405	0.09732	0.28795
284.38	-0.02234	-0.03911	-0.03898	-0.02236	-0.00769	0.02401	0.13252	0.37285
290.892	-0.02132	-0.03676	-0.03789	-0.01875	-0.00464	0.02548	0.14252	0.41951
297.402	-0.02229	-0.0379	-0.04204	-0.02132	-0.00711	0.01625	0.10805	0.35573
303.907	-0.02216	-0.03894	-0.04246	-0.02127	-0.00766	0.00749	0.06567	0.24293
310.41	-0.02155	-0.03827	-0.04127	-0.01967	-0.00791	0.00465	0.0376	0.16413
316.908	-0.0222	-0.03759	-0.04292	-0.01987	-0.01005	0.0024	0.02493	0.13052
323.403	-0.02198	-0.03785	-0.04371	-0.01948	-0.01054	1.43243E-4	0.01759	0.11241
329.895	-0.02253	-0.03799	-0.04444	-0.01915	-0.01092	-0.00149	0.00781	0.091
336.382	-0.02125	-0.03624	-0.04325	-0.01754	-0.01159	-0.00328	-0.00227	0.06531
342.866	-0.0202	-0.03603	-0.04312	-0.01726	-0.01366	-0.00562	-0.01115	0.0418
349.346	-0.02083	-0.0374	-0.04302	-0.01805	-0.01529	-0.00785	-0.01766	0.02425
355.823	-0.02125	-0.03808	-0.04265	-0.01827	-0.01637	-0.01003	-0.02148	0.01299
362.295	-0.01974	-0.03724	-0.04317	-0.01721	-0.01726	-0.0105	-0.02355	0.0077
368.764	-0.01878	-0.03525	-0.04152	-0.01585	-0.01663	-0.00957	-0.02333	0.00559
375.229	-0.01821	-0.03533	-0.04045	-0.01545	-0.01651	-0.00957	-0.02246	0.00449
381.69	-0.01776	-0.03564	-0.03975	-0.0157	-0.01746	-0.0094	-0.02183	0.00443
388.147	-0.01812	-0.03445	-0.03965	-0.0158	-0.01745	-0.01012	-0.02172	0.00467
394.6	-0.01694	-0.03379	-0.03969	-0.01513	-0.01783	-0.01043	-0.02213	0.00336
401.049	-0.0163	-0.03402	-0.039	-0.01467	-0.01784	-0.01021	-0.02301	-4.57425E-5
407.495	-0.01736	-0.03422	-0.03919	-0.01551	-0.01893	-0.01125	-0.02464	-0.00464
413.936	-0.01757	-0.0346	-0.03977	-0.01595	-0.01967	-0.01229	-0.02562	-0.0087
420.373	-0.01687	-0.03394	-0.03873	-0.01515	-0.01863	-0.01167	-0.02352	-0.00885
426.805	-0.01667	-0.03376	-0.03792	-0.01502	-0.01799	-0.01141	-0.02296	-0.00738
433.234	-0.01697	-0.03385	-0.03742	-0.01497	-0.01858	-0.01112	-0.02164	-0.00525
439.659	-0.01674	-0.03356	-0.03692	-0.01411	-0.01891	-0.01055	-0.01955	-0.00311
446.079	-0.01461	-0.03205	-0.03545	-0.01324	-0.01665	-0.00936	-0.01706	-1.88724E-4
452.495	-0.01384	-0.03076	-0.03445	-0.01314	-0.01646	-0.00821	-0.01423	0.00465
458.907	-0.01448	-0.03137	-0.03528	-0.01486	-0.01702	-0.00766	-0.01279	0.00633
465.315	-0.01454	-0.03225	-0.03521	-0.01538	-0.01625	-0.00765	-0.01059	0.00841
471.718	-0.01438	-0.03205	-0.03525	-0.01467	-0.01678	-0.00802	-0.00817	0.01282
478.117	-0.01494	-0.03236	-0.03616	-0.01445	-0.01685	-0.0068	-0.00712	0.01469
484.511	-0.01426	-0.03096	-0.03423	-0.01368	-0.01512	-0.00487	-0.00512	0.01792
490.901	-0.01305	-0.02989	-0.03236	-0.01276	-0.01402	-0.00363	-0.00265	0.02278
497.287	-0.01356	-0.02981	-0.03346	-0.01368	-0.01405	-0.0036	-8.2019E-4	0.02689
503.668	-0.01357	-0.02984	-0.03478	-0.01513	-0.01489	-0.00523	-4.46881E-4	0.02816
510.045	-0.01404	-0.03132	-0.03467	-0.01655	-0.01709	-0.00729	-4.54131E-4	0.02784
516.417	-0.01511	-0.03231	-0.03473	-0.01644	-0.01782	-0.00621	5.099E-4	0.02889
522.784	-0.01581	-0.03366	-0.03656	-0.01753	-0.01866	-0.00639	0.00169	0.03146
529.147	-0.01553	-0.03355	-0.03671	-0.01914	-0.01996	-0.00791	0.00401	0.03696
535.505	-0.0153	-0.03299	-0.0354	-0.0185	-0.01946	-0.00791	0.00726	0.04441
541.859	-0.01486	-0.03267	-0.03467	-0.01785	-0.01894	-0.0071	0.01273	0.05747
548.208	-0.01553	-0.03302	-0.03492	-0.01863	-0.02019	-0.00668	0.01942	0.07578
554.552	-0.0169	-0.03395	-0.03574	-0.01948	-0.02044	-0.00654	0.02759	0.09686
560.892	-0.0168	-0.03348	-0.03524	-0.01935	-0.01947	-0.00531	0.03773	0.12113
567.226	-0.01589	-0.03274	-0.03411	-0.01852	-0.01869	-0.0033	0.04977	0.14853
573.556	-0.01499	-0.03075	-0.0322	-0.01724	-0.01712	-1.38301E-4	0.06421	0.18159
579.881	-0.01445	-0.02969	-0.03165	-0.01683	-0.01643	0.00263	0.08087	0.22397
586.201	-0.0135	-0.02978	-0.03143	-0.01696	-0.0157	0.00571	0.10181	0.28232
592.516	-0.01313	-0.0293	-0.03048	-0.01646	-0.0146	0.00941	0.12552	0.355
598.827	-0.01269	-0.02803	-0.02942	-0.01526	-0.01328	0.01343	0.14952	0.43166
605.132	-0.01234	-0.02737	-0.02898	-0.01456	-0.01239	0.01708	0.17083	0.50091
611.432	-0.01206	-0.02754	-0.02875	-0.01475	-0.01242	0.01967	0.18743	0.54601
617.728	-0.01188	-0.02767	-0.02846	-0.01486	-0.01279	0.02158	0.2004	0.56482
624.018	-0.01193	-0.02772	-0.02823	-0.01512	-0.01388	0.02294	0.21398	0.57771
630.303	-0.01256	-0.02798	-0.02852	-0.01532	-0.01544	0.02386	0.23058	0.60925
636.583	-0.01271	-0.02797	-0.02918	-0.0154	-0.01658	0.02443	0.25155	0.67111
642.858	-0.01266	-0.02813	-0.02895	-0.01544	-0.01791	0.02431	0.27473	0.75956
649.128	-0.0127	-0.02816	-0.02881	-0.01553	-0.01881	0.02275	0.29403	0.85923
655.392	-0.01317	-0.02839	-0.02933	-0.0159	-0.01967	0.01927	0.30002	0.94186
661.651	-0.01357	-0.02828	-0.02957	-0.01648	-0.02064	0.01462	0.29129	0.98948
667.905	-0.0137	-0.02846	-0.02949	-0.01716	-0.02188	0.00786	0.26031	0.95661
674.154	-0.01377	-0.0279	-0.02921	-0.01757	-0.02232	-0.00101	0.19918	0.78733
680.397	-0.01432	-0.02814	-0.02964	-0.0185	-0.02315	-0.00969	0.12663	0.5423
686.635	-0.01485	-0.02882	-0.03004	-0.01946	-0.02405	-0.01648	0.06326	0.31468
692.868	-0.01468	-0.02792	-0.02957	-0.01902	-0.02415	-0.0205	0.02049	0.15844
699.095	-0.01533	-0.02817	-0.02975	-0.01976	-0.02452	-0.02338	-0.00268	0.07393
705.317	-0.01572	-0.02896	-0.03009	-0.02013	-0.02478	-0.02519	-0.01487	0.03017
711.533	-0.0152	-0.02892	-0.03004	-0.01984	-0.02493	-0.02607	-0.0212	0.00761
717.744	-0.01453	-0.02834	-0.02925	-0.01951	-0.02438	-0.02627	-0.02459	-0.004
723.949	-0.01303	-0.02647	-0.02747	-0.01776	-0.02254	-0.02509	-0.02474	-0.00897
730.148	-0.01131	-0.02481	-0.02612	-0.01617	-0.02085	-0.02314	-0.02382	-0.01129
736.342	-0.00982	-0.02331	-0.02491	-0.0148	-0.01964	-0.02218	-0.0237	-0.0127
742.531	-0.00914	-0.02236	-0.02431	-0.01392	-0.01871	-0.02148	-0.0232	-0.01372
748.713	-0.00956	-0.0233	-0.02482	-0.01516	-0.01944	-0.02176	-0.02349	-0.01581
754.89	-0.01011	-0.02325	-0.02492	-0.01561	-0.01984	-0.0225	-0.02492	-0.01716
761.061	-0.00985	-0.0228	-0.02453	-0.01497	-0.01956	-0.02252	-0.02506	-0.01806
767.227	-0.00822	-0.02207	-0.02298	-0.01349	-0.01822	-0.02108	-0.02399	-0.01758
773.387	-0.00866	-0.02244	-0.02307	-0.01396	-0.01813	-0.02178	-0.0247	-0.01801
779.54	-0.00921	-0.02277	-0.02371	-0.01481	-0.01888	-0.02203	-0.02503	-0.01868
785.688	-0.00871	-0.02149	-0.02292	-0.01382	-0.0186	-0.02144	-0.02449	-0.01845
791.831	-0.01112	-0.02325	-0.02463	-0.01614	-0.02042	-0.02404	-0.02667	-0.02127
797.967	-0.01326	-0.02558	-0.02698	-0.01879	-0.0219	-0.02577	-0.02842	-0.02354
804.097	-0.01376	-0.0267	-0.02772	-0.01912	-0.02288	-0.02583	-0.02893	-0.02456
810.221	-0.01333	-0.02564	-0.02658	-0.0183	-0.02205	-0.02591	-0.02862	-0.02398
816.34	-0.01257	-0.02476	-0.02632	-0.01836	-0.02155	-0.02542	-0.02852	-0.0233
822.452	-0.01248	-0.02467	-0.02575	-0.01805	-0.02139	-0.02395	-0.02742	-0.02214
828.558	-0.00989	-0.02248	-0.02295	-0.01454	-0.0179	-0.0221	-0.02458	-0.02035
834.658	-0.00713	-0.01939	-0.02047	-0.01261	-0.01595	-0.02056	-0.02324	-0.01918
840.752	-0.00736	-0.01845	-0.02002	-0.01306	-0.01602	-0.01999	-0.02292	-0.01821
846.84	-0.00631	-0.01777	-0.0188	-0.01183	-0.01459	-0.01927	-0.02176	-0.01759
852.921	-0.00432	-0.01674	-0.01702	-0.01028	-0.01236	-0.01754	-0.01991	-0.01645
858.997	-0.0031	-0.0164	-0.01569	-0.00844	-0.01136	-0.01573	-0.01863	-0.01445
865.066	-0.00352	-0.01552	-0.01496	-0.00791	-0.01112	-0.01458	-0.01737	-0.01344
871.129	-0.00293	-0.01428	-0.01508	-0.00871	-0.0113	-0.01443	-0.01733	-0.01362
877.185	4.13554E-4	-0.01107	-0.0126	-0.00657	-0.00836	-0.01305	-0.01571	-0.0117
883.235	0.00211	-0.00993	-0.01051	-0.00415	-0.00577	-0.01176	-0.01385	-0.00998
889.279	4.59735E-4	-0.0108	-0.01203	-0.00546	-0.00693	-0.01221	-0.01545	-0.01075
895.317	4.75962E-4	-0.01006	-0.01157	-0.00454	-0.00682	-0.0113	-0.01429	-0.00932
901.348	0.00339	-0.00864	-0.00796	-0.00162	-0.00487	-0.0087	-0.01151	-0.00676
907.372	0.00501	-0.00781	-0.00675	-0.00105	-0.00308	-0.00735	-0.01017	-0.00642
913.39	0.00885	-0.00402	-0.00383	0.00198	5.83202E-4	-0.00406	-0.00647	-0.00313
919.402	0.01372	0.00119	2.333E-4	0.00657	0.0053	-5.70054E-4	-0.00178	0.00233
925.407	0.02003	0.00821	0.00705	0.01419	0.01306	0.00744	0.00568	0.01008
931.405	0.03091	0.01938	0.01764	0.02576	0.02276	0.02007	0.01756	0.02273
937.397	0.04006	0.02747	0.02752	0.03416	0.03186	0.02867	0.02829	0.03581
943.382	0.05395	0.04324	0.04136	0.04873	0.04834	0.04269	0.04544	0.05441
949.36	0.09134	0.07836	0.07736	0.08502	0.08358	0.07774	0.08002	0.08794
955.332	0.13114	0.11708	0.11865	0.12524	0.12353	0.11783	0.11833	0.1241
961.297	0.15408	0.14188	0.14085	0.14984	0.14751	0.14228	0.14165	0.14723
967.255	0.16684	0.15675	0.1542	0.16311	0.16077	0.15559	0.15392	0.15941
973.207	0.17411	0.16326	0.16292	0.16936	0.16815	0.16207	0.16033	0.16567
979.151	0.17062	0.15982	0.15931	0.16421	0.16448	0.16007	0.15787	0.16406
985.089	0.16375	0.15415	0.15102	0.15704	0.15833	0.15362	0.15057	0.15842
991.02	0.15873	0.14704	0.14521	0.15119	0.15129	0.14549	0.14439	0.1516
996.944	0.14678	0.13044	0.135	0.13224	0.12841	0.13072	0.13087	0.14112
1000.172	0.13884	0.13586	0.12836	0.13312	0.13609	0.12827	0.12938	0.142

File: Methylene_blue.dat
# Methylene blue
# Wavelength(nm) Absorbance(a.u.)
#	A.M. 195 min	A.M. 120 min	A.M. 90 min	A.M. 60 min	A.M. 30 min	A.M. 15 min	A.M. 5 min	A.M. 0 min
199.408	-0.06417	-0.03533	-0.00818	 0.0129	         0.01452	-0.00598	0.02573	          -0.01275
205.964	-0.06678	-0.02232	-0.00983	-0.01365	 0.00651	 0.0057	        0.0161	           0.01836
212.516	-0.06795	-0.03367	-0.01916	-0.0143	         0.00814	-0.00911	0.01117	           0.01267
219.066	-0.06449	-0.02266	-0.01191	-0.01125	 0.01673	-0.0011	        0.01146	           0.01984
225.612	-0.06291	-0.00793	0.00182	0.00413	0.02258	0.01118	0.01512	0.0229
232.155	-0.0663	-0.01876	0.00117	0.00239	0.0202	0.00983	0.01057	0.01303
238.694	-0.04378	-0.00486	0.01195	0.01352	0.03152	0.0233	0.02528	0.02903
245.231	-0.02929	0.01125	0.02592	0.02536	0.04452	0.03665	0.04312	0.0546
251.764	-0.02214	0.01835	0.03061	0.027	0.04817	0.03471	0.04674	0.05831
258.294	-0.00976	0.02458	0.04042	0.03576	0.05502	0.04515	0.05459	0.06325
264.82	0.00895	0.03761	0.05621	0.05418	0.07282	0.07158	0.07924	0.08021
271.344	0.02307	0.05852	0.0821	0.08679	0.11032	0.11273	0.11438	0.11887
277.863	0.03911	0.1	0.12449	0.13288	0.16625	0.16803	0.16832	0.17704
284.38	0.05572	0.14589	0.17394	0.19513	0.23474	0.23774	0.24113	0.25071
290.892	0.0668	0.16634	0.2001	0.22947	0.2698	0.27901	0.27916	0.29058
297.402	0.06744	0.14196	0.16902	0.1941	0.22526	0.23399	0.2333	0.245
303.907	0.05818	0.10192	0.11955	0.13379	0.15318	0.15861	0.15854	0.17012
310.41	0.05109	0.07484	0.08555	0.09381	0.10383	0.10749	0.10787	0.11833
316.908	0.05123	0.06752	0.07659	0.08163	0.08902	0.0901	0.09011	0.10105
323.403	0.05057	0.06407	0.07164	0.0751	0.08157	0.08117	0.08163	0.09296
329.895	0.04715	0.05595	0.0601	0.06304	0.06725	0.06744	0.06748	0.07818
336.382	0.04024	0.04433	0.04568	0.04823	0.04848	0.049	0.04803	0.05804
342.866	0.03354	0.03346	0.03467	0.03542	0.03362	0.03396	0.03286	0.0433
349.346	0.02871	0.02679	0.02777	0.02651	0.02581	0.02575	0.02611	0.03474
355.823	0.0237	0.02129	0.02129	0.02079	0.02042	0.0199	0.02028	0.02897
362.295	0.02218	0.01827	0.01821	0.01892	0.0189	0.01707	0.01834	0.02704
368.764	0.02091	0.01736	0.01744	0.0189	0.0181	0.01713	0.01811	0.02669
375.229	0.01888	0.01684	0.01725	0.01837	0.01812	0.01836	0.01791	0.02768
381.69	0.01556	0.01506	0.01599	0.01727	0.01747	0.01768	0.01785	0.02742
388.147	0.01406	0.01455	0.01608	0.01714	0.01805	0.01735	0.01832	0.02731
394.6	0.01313	0.01271	0.01521	0.01647	0.01787	0.01634	0.01717	0.0263
401.049	0.01198	0.0109	0.01358	0.01457	0.01502	0.01495	0.01533	0.02457
407.495	0.01182	0.0099	0.01219	0.01282	0.01311	0.01351	0.01389	0.02295
413.936	0.01108	0.00825	0.01074	0.01126	0.01196	0.01155	0.01222	0.02059
420.373	0.01084	0.00819	0.01055	0.01112	0.01168	0.0113	0.01237	0.02049
426.805	0.00991	0.00896	0.01038	0.01177	0.01268	0.01244	0.01345	0.02191
433.234	0.00873	0.00906	0.01096	0.01199	0.01389	0.01336	0.01489	0.02362
439.659	0.00909	0.00945	0.01211	0.01382	0.01501	0.01508	0.01632	0.02576
446.079	0.00883	0.01043	0.01374	0.01587	0.01705	0.01761	0.01829	0.02761
452.495	0.00793	0.01062	0.01453	0.01664	0.01939	0.01937	0.02032	0.02885
458.907	0.00853	0.01253	0.01639	0.01879	0.02251	0.02203	0.02324	0.03149
465.315	0.00861	0.01477	0.0187	0.02129	0.02492	0.0251	0.02657	0.03484
471.718	0.00828	0.0154	0.02055	0.02234	0.02696	0.02802	0.02877	0.03749
478.117	0.00761	0.01476	0.02079	0.02244	0.02731	0.02847	0.02874	0.03793
484.511	0.00906	0.01688	0.02263	0.02549	0.0303	0.0312	0.03155	0.04101
490.901	0.00985	0.01946	0.02615	0.02947	0.03562	0.03639	0.03723	0.04574
497.287	0.00832	0.01879	0.02661	0.03015	0.03734	0.03768	0.0393	0.04774
503.668	0.0079	0.01901	0.02635	0.03012	0.03687	0.03804	0.03879	0.04874
510.045	0.00768	0.01886	0.02596	0.02952	0.03658	0.03772	0.03832	0.0483
516.417	0.00804	0.02043	0.02735	0.03105	0.03866	0.03954	0.04057	0.05012
522.784	0.00707	0.02061	0.02847	0.03253	0.0403	0.04098	0.0422	0.05146
529.147	0.00708	0.02108	0.02906	0.03438	0.04153	0.04294	0.04416	0.05339
535.505	0.00823	0.02432	0.0325	0.03888	0.0466	0.04816	0.04989	0.05861
541.859	0.00955	0.02925	0.03886	0.04617	0.05563	0.05772	0.05988	0.06802
548.208	0.01052	0.03519	0.04691	0.05589	0.06758	0.07064	0.07255	0.08081
554.552	0.01196	0.04278	0.05642	0.06771	0.08211	0.08568	0.08786	0.09613
560.892	0.01395	0.0512	0.06702	0.08035	0.09708	0.10117	0.10397	0.11182
567.226	0.01614	0.06102	0.07968	0.09541	0.11498	0.11994	0.12315	0.13025
573.556	0.01904	0.07297	0.09503	0.11361	0.13709	0.14283	0.14646	0.15288
579.881	0.02321	0.0894	0.11617	0.13819	0.16757	0.17432	0.17833	0.18483
586.201	0.02821	0.11053	0.14421	0.17085	0.20821	0.21702	0.22114	0.22786
592.516	0.03349	0.13463	0.17646	0.20926	0.25674	0.26814	0.27217	0.2791
598.827	0.03887	0.15913	0.20943	0.24828	0.30727	0.32151	0.32528	0.33298
605.132	0.04354	0.18041	0.23786	0.28181	0.35039	0.36747	0.37058	0.37954
611.432	0.04663	0.1937	0.25486	0.30114	0.37396	0.39234	0.39492	0.40436
617.728	0.04878	0.20037	0.26211	0.30763	0.37964	0.39728	0.39975	0.40917
624.018	0.05162	0.20735	0.26911	0.314	0.38401	0.40083	0.40276	0.41221
630.303	0.05559	0.22163	0.28596	0.33202	0.40308	0.41996	0.4216	0.43104
636.583	0.06116	0.24592	0.31668	0.36625	0.4439	0.46259	0.46344	0.47329
642.858	0.06776	0.27729	0.35762	0.4132	0.50226	0.52342	0.52374	0.53445
649.128	0.07303	0.3093	0.4013	0.46497	0.56789	0.59313	0.59252	0.60497
655.392	0.07488	0.33088	0.43267	0.50299	0.61855	0.64801	0.64649	0.66104
661.651	0.07266	0.33838	0.44627	0.52201	0.64656	0.68016	0.67826	0.69447
667.905	0.06418	0.31492	0.41863	0.49247	0.61473	0.64896	0.64638	0.66372
674.154	0.04827	0.24929	0.33295	0.39309	0.49235	0.52026	0.51771	0.53431
680.397	0.02904	0.16454	0.22112	0.26281	0.32944	0.34841	0.34693	0.36075
686.635	0.01214	0.09051	0.12366	0.14919	0.18797	0.19927	0.19863	0.20986
692.868	-1.12387E-4	0.04033	0.05797	0.07238	0.09305	0.09905	0.09923	0.10896
699.095	-0.0068	0.01429	0.02412	0.03248	0.04387	0.04713	0.04795	0.05696
705.317	-0.00997	0.00107	0.00694	0.01212	0.0183	0.0204	0.0213	0.02974
711.533	-0.0114	-0.00551	-0.00185	0.00167	0.00537	0.00671	0.00775	0.0159
717.744	-0.01289	-0.00962	-0.00722	-0.00469	-0.00209	-9.62065E-4	2.10787E-5	0.00818
723.949	-0.01357	-0.01194	-0.01002	-0.00803	-0.00641	-0.00561	-0.00473	0.00359
730.148	-0.01342	-0.01281	-0.0111	-0.00951	-0.00841	-0.00789	-0.007	0.00147
736.342	-0.01331	-0.01328	-0.01177	-0.01064	-0.00992	-0.00943	-0.0084	-3.1225E-5
742.531	-0.0137	-0.01408	-0.01303	-0.01193	-0.01161	-0.01119	-0.0104	-0.00202
748.713	-0.01403	-0.01493	-0.01421	-0.01323	-0.01279	-0.01274	-0.01184	-0.00344
754.89	-0.01474	-0.01577	-0.0152	-0.01416	-0.01408	-0.01409	-0.0131	-0.00461
761.061	-0.01545	-0.01654	-0.01592	-0.01499	-0.01518	-0.01513	-0.01408	-0.00596
767.227	-0.0163	-0.01762	-0.01698	-0.01635	-0.01633	-0.01628	-0.01521	-0.00731
773.387	-0.0175	-0.01902	-0.01844	-0.01784	-0.01803	-0.01793	-0.01704	-0.00894
779.54	-0.01865	-0.02038	-0.0197	-0.01926	-0.0198	-0.01969	-0.01879	-0.01036
785.688	-0.0193	-0.02117	-0.02055	-0.02005	-0.02055	-0.02046	-0.01971	-0.01115
791.831	-0.01909	-0.02121	-0.02058	-0.0203	-0.02024	-0.02034	-0.01975	-0.01129
797.967	-0.01993	-0.02199	-0.02133	-0.02122	-0.02109	-0.02131	-0.02051	-0.01191
804.097	-0.02107	-0.02305	-0.02234	-0.02197	-0.02237	-0.02262	-0.0218	-0.01312
810.221	-0.02094	-0.023	-0.02254	-0.02232	-0.02252	-0.02286	-0.022	-0.01321
816.34	-0.02142	-0.02347	-0.02306	-0.02288	-0.02293	-0.02311	-0.02245	-0.0137
822.452	-0.02253	-0.02447	-0.02433	-0.02392	-0.02422	-0.02448	-0.024	-0.015
828.558	-0.02125	-0.02289	-0.0231	-0.02267	-0.02283	-0.02307	-0.02247	-0.01354
834.658	-0.01927	-0.02103	-0.02112	-0.02018	-0.02082	-0.02097	-0.02039	-0.01196
840.752	-0.01981	-0.02145	-0.02134	-0.02094	-0.0214	-0.02168	-0.02114	-0.01327
846.84	-0.01991	-0.02169	-0.02156	-0.02152	-0.02165	-0.0218	-0.02113	-0.0131
852.921	-0.01931	-0.0218	-0.02138	-0.02127	-0.02154	-0.02162	-0.02093	-0.01251
858.997	-0.01843	-0.02093	-0.02065	-0.02061	-0.02044	-0.02094	-0.02007	-0.01237
865.066	-0.01791	-0.02054	-0.02045	-0.02044	-0.02017	-0.02058	-0.01978	-0.01182
871.129	-0.01847	-0.0206	-0.02039	-0.02024	-0.02046	-0.02075	-0.02015	-0.0118
877.185	-0.01941	-0.02113	-0.02055	-0.02009	-0.02052	-0.02112	-0.02047	-0.01197
883.235	-0.01917	-0.02118	-0.02057	-0.02037	-0.02043	-0.02072	-0.02036	-0.01172
889.279	-0.01755	-0.01949	-0.01926	-0.01937	-0.01961	-0.02011	-0.01957	-0.01064
895.317	-0.01718	-0.01901	-0.01905	-0.01884	-0.01911	-0.02012	-0.01942	-0.01033
901.348	-0.01676	-0.01885	-0.01896	-0.01863	-0.01869	-0.01935	-0.01886	-0.0107
907.372	-0.01634	-0.01855	-0.0185	-0.01814	-0.01856	-0.01918	-0.01837	-0.0105
913.39	-0.01598	-0.0182	-0.01825	-0.01795	-0.01854	-0.01901	-0.01783	-0.00986
919.402	-0.01329	-0.01534	-0.01554	-0.01559	-0.01604	-0.01627	-0.01541	-0.00775
925.407	-0.0073	-0.00992	-0.00965	-0.00986	-0.00993	-0.01059	-0.00967	-0.00228
931.405	-0.00122	-0.00305	-0.00289	-0.00336	-0.00319	-0.00395	-0.00255	0.00522
937.397	0.00412	0.00335	0.00289	0.00208	0.00277	0.00208	0.00289	0.01052
943.382	0.01426	0.01266	0.013	0.01281	0.01359	0.01182	0.01229	0.02108
949.36	0.0326	0.03125	0.03021	0.03069	0.03092	0.02972	0.03105	0.03907
955.332	0.05071	0.0495	0.04894	0.04865	0.04764	0.04808	0.04778	0.05706
961.297	0.06341	0.06069	0.06161	0.06118	0.06043	0.05952	0.05991	0.06952
967.255	0.06786	0.06501	0.06563	0.06497	0.06528	0.0637	0.06505	0.07398
973.207	0.0699	0.0675	0.06703	0.06649	0.06658	0.06594	0.067	0.07547
979.151	0.06755	0.06521	0.06504	0.06468	0.06387	0.06358	0.06397	0.07283
985.089	0.06191	0.05937	0.06013	0.05942	0.05938	0.0589	0.05879	0.06713
991.02	0.05547	0.05351	0.05351	0.05322	0.05321	0.05217	0.05256	0.06008
996.944	0.04479	0.04375	0.04416	0.0441	0.04189	0.04258	0.04253	0.05052
1000.172	0.04561	0.04654	0.04672	0.0444	0.04417	0.04192	0.04599	0.0518