Folder: TiO2-Au (part 2)

File: Methylene_blue_anatase0.28_brookite0.72.dat
# Methylene blue with anatase (0.28%) brookite (0.72%)
# Wavelength(nm) Absorbance(a.u.)
#	A.M.Brooquita.Anatasa. 60h 195 min	A.M.Brooquita.Anatasa. 60h 120 min	A.M.Brooquita.Anatasa. 60h 90 min	A.M.Brooquita.Anatasa. 60h 60 min	A.M.Brooquita.Anatasa. 60h 30 min	A.M.Brooquita.Anatasa. 60h 15 min	A.M.Brooquita.Anatasa. 60h 5 min	A.M.Brooquita.Anatasa. 60h 0 min
199.408	-0.03376	-0.02285	-0.02507	0.00684	0.00931	0.02696	0.02491	0.02874
205.964	-0.02335	-0.01961	-0.01232	-0.00797	0.01275	0.02999	0.0459	0.03418
212.516	-0.02162	-0.01937	-0.01023	-0.00839	0.01124	0.03524	0.04522	0.03656
219.066	-0.02551	-0.02384	-0.01116	-0.01009	0.00768	0.03209	0.04251	0.03957
225.612	-0.02877	-0.0252	-0.01531	-0.01141	0.00836	0.02561	0.04171	0.03817
232.155	-0.02414	-0.01759	-0.01343	-0.00662	0.01685	0.03213	0.04308	0.04201
238.694	-0.0216	-0.01324	-0.00988	3.04427E-4	0.01971	0.04061	0.05245	0.05636
245.231	-0.02033	-0.00885	4.476E-4	0.00335	0.01944	0.04986	0.06834	0.07975
251.764	-0.01506	0.00176	0.01362	0.01248	0.02906	0.06389	0.08219	0.1169
258.294	-0.01497	0.00986	0.01673	0.02038	0.03539	0.07542	0.1003	0.15028
264.82	-0.0168	0.01422	0.02081	0.02583	0.04016	0.08557	0.11983	0.1779
271.344	-0.0171	0.01828	0.02667	0.03153	0.04616	0.10244	0.14161	0.21686
277.863	-0.01788	0.01925	0.03082	0.03567	0.0548	0.12129	0.16782	0.25896
284.38	-0.01886	0.01921	0.03316	0.04097	0.06788	0.14333	0.19918	0.30324
290.892	-0.02012	0.01971	0.03332	0.04252	0.07182	0.15484	0.21652	0.33495
297.402	-0.01955	0.02075	0.03129	0.04004	0.06188	0.14299	0.20562	0.33785
303.907	-0.02023	0.0213	0.02869	0.03576	0.04738	0.11865	0.17796	0.31723
310.41	-0.02089	0.02032	0.02791	0.03283	0.03638	0.09942	0.15192	0.28718
316.908	-0.02178	0.01884	0.0283	0.03058	0.0315	0.08793	0.13284	0.25516
323.403	-0.02447	0.01731	0.02631	0.0281	0.027	0.07505	0.11256	0.21472
329.895	-0.02519	0.01558	0.02359	0.02522	0.02156	0.06048	0.09032	0.17184
336.382	-0.02455	0.01294	0.02095	0.02147	0.01585	0.04589	0.06882	0.13385
342.866	-0.02421	0.00944	0.01758	0.01697	0.01099	0.03369	0.05051	0.10288
349.346	-0.02508	0.00653	0.0136	0.01293	0.00641	0.02467	0.03698	0.07917
355.823	-0.0259	0.00364	0.00987	0.00995	0.00276	0.01705	0.02634	0.06071
362.295	-0.02622	0.00111	0.00708	0.00734	4.8919E-4	0.01162	0.01897	0.04762
368.764	-0.02634	-7.17595E-4	0.00516	0.00519	-0.00124	0.00859	0.01415	0.03858
375.229	-0.02664	-0.00282	0.00325	0.0033	-0.0028	0.00559	0.01107	0.03157
381.69	-0.02689	-0.00458	0.00126	0.0013	-0.00413	0.00329	0.00791	0.02603
388.147	-0.02706	-0.00591	-4.36581E-4	-5.30291E-4	-0.00493	0.00199	0.00572	0.02186
394.6	-0.02716	-0.00773	-0.00259	-0.00275	-0.00655	2.09786E-5	0.00344	0.01764
401.049	-0.02738	-0.00949	-0.00426	-0.00393	-0.00777	-0.00197	0.0012	0.01372
407.495	-0.02704	-0.01008	-0.0048	-0.00447	-0.00841	-0.00327	-9.52436E-4	0.01072
413.936	-0.02678	-0.01099	-0.00629	-0.00544	-0.00937	-0.00467	-0.00266	0.00781
420.373	-0.02688	-0.01281	-0.008	-0.00716	-0.00994	-0.00618	-0.00382	0.00547
426.805	-0.02667	-0.01353	-0.00928	-0.00855	-0.01072	-0.00712	-0.00473	0.0045
433.234	-0.0267	-0.01413	-0.01062	-0.00982	-0.01153	-0.00726	-0.00474	0.00326
439.659	-0.02656	-0.01549	-0.01146	-0.01113	-0.01166	-0.00735	-0.00518	0.00165
446.079	-0.02636	-0.01615	-0.01218	-0.01194	-0.0118	-0.00751	-0.00526	7.06073E-4
452.495	-0.02595	-0.01626	-0.01271	-0.01197	-0.01173	-0.00674	-0.00444	7.99976E-4
458.907	-0.0257	-0.01637	-0.01299	-0.01217	-0.01147	-0.00571	-0.0039	6.90772E-4
465.315	-0.02565	-0.01663	-0.01339	-0.01238	-0.01089	-0.00554	-0.00286	5.00425E-4
471.718	-0.02518	-0.01732	-0.01349	-0.01241	-0.01026	-0.00554	-0.00228	6.78312E-4
478.117	-0.02494	-0.01745	-0.01364	-0.01275	-0.01081	-0.0053	-0.00237	3.68537E-4
484.511	-0.02447	-0.01704	-0.01364	-0.01243	-0.01022	-0.00458	-0.00149	7.4725E-4
490.901	-0.0243	-0.01731	-0.01319	-0.01189	-0.00876	-0.00309	1.6128E-4	0.00162
497.287	-0.02404	-0.01739	-0.01315	-0.01218	-0.00731	-6.37887E-4	0.00236	0.00287
503.668	-0.02382	-0.01708	-0.01386	-0.01178	-0.00694	8.42029E-5	0.00291	0.00329
510.045	-0.02408	-0.01726	-0.01333	-0.01147	-0.0066	2.37685E-4	0.00319	0.00327
516.417	-0.02371	-0.01748	-0.01231	-0.01104	-0.00553	0.00125	0.00493	0.00396
522.784	-0.02333	-0.01683	-0.01148	-0.01	-0.00377	0.00384	0.00781	0.00536
529.147	-0.02361	-0.01662	-0.01119	-0.00895	-0.00222	0.0056	0.00891	0.00606
535.505	-0.02315	-0.01612	-0.01014	-0.00754	-5.82821E-4	0.00795	0.01093	0.00812
541.859	-0.02312	-0.01597	-0.00957	-0.00666	0.00161	0.01146	0.01525	0.01127
548.208	-0.02319	-0.0159	-0.00904	-0.00565	0.00518	0.01636	0.02159	0.01583
554.552	-0.02293	-0.01522	-0.00832	-0.00419	0.00877	0.02223	0.02835	0.02101
560.892	-0.02254	-0.01473	-0.00735	-0.00239	0.0131	0.02851	0.03587	0.02707
567.226	-0.02209	-0.01417	-0.00605	-7.36476E-4	0.01818	0.03561	0.04464	0.03368
573.556	-0.02132	-0.0135	-0.00477	0.00108	0.02325	0.0435	0.05418	0.04074
579.881	-0.02064	-0.0126	-0.00335	0.00326	0.02855	0.05221	0.06487	0.04914
586.201	-0.02049	-0.01231	-0.00225	0.00504	0.03469	0.06209	0.07759	0.05915
592.516	-0.02056	-0.01185	-0.00145	0.00676	0.04125	0.07319	0.09216	0.07043
598.827	-0.02043	-0.01118	-1.07395E-4	0.00874	0.04855	0.08468	0.10743	0.08267
605.132	-0.02029	-0.01058	0.00118	0.01045	0.05557	0.09558	0.12174	0.0947
611.432	-0.01996	-0.01028	0.00168	0.01163	0.06051	0.10364	0.13194	0.1036
617.728	-0.02015	-0.01098	0.00134	0.01195	0.06315	0.10803	0.13726	0.1077
624.018	-0.02043	-0.01143	0.00141	0.01263	0.06568	0.11169	0.14131	0.11041
630.303	-0.02084	-0.01145	0.00166	0.01296	0.06849	0.1166	0.14723	0.11484
636.583	-0.02106	-0.01159	0.0015	0.01305	0.07236	0.12371	0.15718	0.12182
642.858	-0.02091	-0.01191	8.33945E-4	0.01303	0.07781	0.13349	0.17126	0.13169
649.128	-0.02023	-0.01168	5.05055E-4	0.01366	0.08315	0.14371	0.18738	0.14369
655.392	-0.0198	-0.01157	-8.65838E-5	0.01351	0.08547	0.14916	0.19787	0.15255
661.651	-0.01965	-0.01217	-0.00204	0.01185	0.08451	0.14992	0.20154	0.15713
667.905	-0.01939	-0.0129	-0.0051	0.00808	0.07631	0.13847	0.18884	0.1487
674.154	-0.01926	-0.0139	-0.00828	0.00246	0.05831	0.10893	0.15109	0.11948
680.397	-0.01938	-0.01536	-0.01152	-0.00384	0.03508	0.07065	0.10013	0.07856
686.635	-0.01966	-0.01691	-0.01433	-0.00948	0.01397	0.03555	0.05311	0.04044
692.868	-0.0191	-0.01735	-0.01591	-0.01313	2.33847E-4	0.01221	0.0217	0.01439
699.095	-0.01856	-0.01742	-0.01706	-0.01558	-0.00815	-9.36128E-4	0.00448	1.11297E-4
705.317	-0.01886	-0.01786	-0.01743	-0.01681	-0.01291	-0.00837	-0.00494	-0.00697
711.533	-0.01849	-0.01791	-0.01779	-0.01729	-0.01496	-0.01191	-0.00954	-0.01055
717.744	-0.01821	-0.0181	-0.0184	-0.01804	-0.0162	-0.01399	-0.01234	-0.01273
723.949	-0.01834	-0.01793	-0.01814	-0.0178	-0.01675	-0.01507	-0.01383	-0.0138
730.148	-0.01713	-0.01688	-0.01753	-0.01705	-0.01641	-0.01481	-0.01373	-0.01374
736.342	-0.01563	-0.01563	-0.01614	-0.01597	-0.01496	-0.01379	-0.01261	-0.01284
742.531	-0.01497	-0.01495	-0.01507	-0.01562	-0.01486	-0.01402	-0.01281	-0.01229
748.713	-0.01459	-0.01493	-0.01533	-0.01576	-0.01493	-0.01403	-0.01303	-0.01218
754.89	-0.01459	-0.01515	-0.01528	-0.01518	-0.01471	-0.01398	-0.01327	-0.0131
761.061	-0.01457	-0.01491	-0.01466	-0.01499	-0.01477	-0.01419	-0.01381	-0.01352
767.227	-0.01524	-0.01547	-0.01516	-0.0157	-0.01544	-0.01498	-0.01437	-0.01422
773.387	-0.01579	-0.01568	-0.01553	-0.01587	-0.01609	-0.01583	-0.01527	-0.01467
779.54	-0.0157	-0.0154	-0.01572	-0.01621	-0.0162	-0.01624	-0.01579	-0.01526
785.688	-0.01601	-0.01599	-0.01632	-0.01685	-0.01649	-0.01627	-0.01587	-0.01573
791.831	-0.01628	-0.0169	-0.01678	-0.01743	-0.0171	-0.01683	-0.0163	-0.01598
797.967	-0.01664	-0.01703	-0.01717	-0.01755	-0.01744	-0.0178	-0.01689	-0.01654
804.097	-0.01691	-0.01674	-0.01738	-0.01737	-0.01703	-0.01749	-0.01622	-0.01593
810.221	-0.01688	-0.01675	-0.01743	-0.0175	-0.01736	-0.01698	-0.01572	-0.01576
816.34	-0.01681	-0.01705	-0.01764	-0.01771	-0.01784	-0.01723	-0.01639	-0.01687
822.452	-0.01651	-0.01617	-0.0162	-0.01782	-0.01768	-0.01648	-0.01636	-0.01604
828.558	-0.01486	-0.01467	-0.0148	-0.01627	-0.01659	-0.01613	-0.01577	-0.01405
834.658	-0.01416	-0.01408	-0.01442	-0.01506	-0.0154	-0.01534	-0.0154	-0.01368
840.752	-0.01418	-0.01377	-0.01423	-0.01478	-0.01474	-0.01506	-0.0146	-0.01375
846.84	-0.0129	-0.01266	-0.01362	-0.01458	-0.01447	-0.01457	-0.01403	-0.01316
852.921	-0.01149	-0.01203	-0.0122	-0.01329	-0.0128	-0.01259	-0.01256	-0.01221
858.997	-0.01047	-0.01156	-0.01175	-0.01232	-0.01194	-0.01204	-0.0118	-0.01145
865.066	-0.01042	-0.01114	-0.01217	-0.01292	-0.013	-0.01341	-0.01316	-0.01078
871.129	-0.01021	-0.01079	-0.0113	-0.01303	-0.01292	-0.01259	-0.01235	-0.01001
877.185	-0.00913	-0.00935	-0.00979	-0.01105	-0.01049	-0.00973	-0.00949	-0.00869
883.235	-0.00826	-0.0076	-0.00885	-0.00963	-0.00985	-0.00875	-0.00896	-0.00745
889.279	-0.00745	-0.00732	-0.00851	-0.0094	-0.00958	-0.00936	-0.0093	-0.00737
895.317	-0.0068	-0.00753	-0.00872	-0.00945	-0.00908	-0.00927	-0.00869	-0.00746
901.348	-0.00624	-0.00626	-0.00696	-0.00758	-0.00764	-0.00812	-0.00749	-0.00689
907.372	-0.00485	-0.00484	-0.00563	-0.00647	-0.00634	-0.00642	-0.00628	-0.0065
913.39	-0.00349	-0.00335	-0.00457	-0.0055	-0.00556	-0.00497	-0.00486	-0.00434
919.402	-0.00143	-0.0024	-0.00256	-0.00266	-0.00315	-0.00281	-0.00256	-0.00199
925.407	0.00244	8.56105E-4	0.00112	0.00111	9.29738E-4	0.00163	0.00178	0.00165
931.405	0.00687	0.00646	0.00501	0.00476	0.00493	0.00578	0.00621	0.00675
937.397	0.01213	0.01206	0.01058	0.01083	0.0109	0.01151	0.01197	0.0132
943.382	0.02331	0.02318	0.02281	0.02265	0.02464	0.0247	0.0241	0.0255
949.36	0.04197	0.04171	0.03957	0.0389	0.04035	0.04168	0.04144	0.04168
955.332	0.06123	0.06206	0.05893	0.05684	0.05803	0.05925	0.06056	0.06042
961.297	0.07374	0.07384	0.07324	0.07097	0.07243	0.07269	0.07302	0.07401
967.255	0.0801	0.07897	0.07932	0.07863	0.07977	0.07888	0.07855	0.07904
973.207	0.08122	0.08045	0.07951	0.0804	0.0809	0.08012	0.0803	0.08054
979.151	0.08037	0.08004	0.07879	0.07909	0.07953	0.07987	0.07932	0.08024
985.089	0.0778	0.07809	0.07735	0.07522	0.07627	0.07722	0.07661	0.0777
991.02	0.07427	0.07503	0.07386	0.07178	0.07218	0.07237	0.07255	0.07434
996.944	0.06629	0.06335	0.06765	0.06605	0.06426	0.06598	0.06939	0.0675
1000.172	0.06202	0.06421	0.06299	0.06783	0.06461	0.06441	0.06465	0.06691

File: Methylene_blue_anatase0.73_brookite0.27.dat
# Methylene blue with anatase (0.73%) brookite (0.27%)
# Wavelength(nm) Absorbance(a.u.)
#	A.M. Anatasa-Brooquita 195 min	A.M. Anatasa-Brooquita 120 min	A.M. Anatasa-Brooquita 90 min	A.M. Anatasa-Brooquita 60 min	A.M. Anatasa-Brooquita 30 min	A.M. Anatasa-Brooquita 15 min	A.M. Anatasa-Brooquita 5 min	A.M. Anatasa-Brooquita 0 min
199.408	-0.03224	-0.03101	-0.03623	0.00283	-0.04208	-0.02217	-0.01822	0.0204
205.964	0.00722	-0.01113	-0.02152	-0.01251	-0.01246	-0.00644	0.00991	0.03058
212.516	6.80369E-4	-0.00563	-0.02097	-0.01764	-0.01521	-0.00392	0.00628	0.03418
219.066	-0.00528	-0.00791	-0.02276	-0.01715	-0.01702	-0.0139	0.0028	0.02818
225.612	-7.22035E-4	-0.0117	-0.02328	-0.01454	-0.00832	-0.01277	0.00621	0.02584
232.155	0.00112	-0.00591	-0.02141	-0.01081	-0.00169	-0.00409	0.01372	0.03564
238.694	0.03266	0.01785	-0.00297	0.02107	0.01052	0.01192	0.03681	0.0654
245.231	0.08102	0.05625	0.03072	0.05465	0.03851	0.04821	0.06753	0.09294
251.764	0.13289	0.10335	0.07956	0.08857	0.08234	0.08365	0.10139	0.12012
258.294	0.18022	0.14387	0.12437	0.13341	0.12337	0.1155	0.1334	0.14522
264.82	0.21996	0.18178	0.16189	0.16508	0.15292	0.1494	0.15687	0.17171
271.344	0.27749	0.22845	0.20503	0.20329	0.18476	0.17819	0.18213	0.20075
277.863	0.33847	0.27744	0.25311	0.24788	0.22511	0.2116	0.21621	0.23977
284.38	0.40087	0.32194	0.29813	0.29017	0.26126	0.2479	0.24919	0.2766
290.892	0.46789	0.36376	0.33212	0.3246	0.28687	0.27427	0.2734	0.30457
297.402	0.50243	0.38486	0.34785	0.33878	0.30022	0.28203	0.28191	0.30861
303.907	0.5106	0.38497	0.34747	0.34248	0.30455	0.28145	0.27931	0.30379
310.41	0.50276	0.37861	0.34135	0.33825	0.2973	0.27624	0.27225	0.30021
316.908	0.4868	0.36394	0.33113	0.32776	0.28798	0.26585	0.26259	0.29494
323.403	0.46062	0.34282	0.31129	0.3118	0.27662	0.25087	0.25137	0.28668
329.895	0.42337	0.31399	0.28527	0.29086	0.25862	0.23332	0.23612	0.27637
336.382	0.38041	0.28285	0.25663	0.26716	0.23759	0.2152	0.21733	0.26278
342.866	0.34253	0.25522	0.23116	0.24344	0.21724	0.1983	0.20084	0.24988
349.346	0.31325	0.23427	0.21078	0.22554	0.2013	0.18298	0.18803	0.23914
355.823	0.2897	0.2162	0.19336	0.2107	0.18857	0.17025	0.17743	0.23117
362.295	0.26981	0.2014	0.18038	0.1984	0.17792	0.16062	0.16885	0.22381
368.764	0.25117	0.18806	0.16859	0.18779	0.16908	0.15295	0.16058	0.21721
375.229	0.23278	0.17353	0.15528	0.17529	0.15827	0.14255	0.1522	0.20905
381.69	0.21624	0.15848	0.14233	0.16365	0.14832	0.13313	0.14464	0.20053
388.147	0.20268	0.14799	0.13246	0.15411	0.14034	0.1255	0.13796	0.1937
394.6	0.18981	0.13792	0.12435	0.14635	0.13228	0.11914	0.13182	0.18744
401.049	0.17825	0.12798	0.11539	0.13884	0.1255	0.11295	0.12643	0.1805
407.495	0.1675	0.11947	0.10713	0.13147	0.11907	0.10713	0.12166	0.17404
413.936	0.15748	0.11175	0.10054	0.12349	0.11265	0.10153	0.11698	0.16923
420.373	0.14912	0.10502	0.0944	0.11682	0.10675	0.09658	0.1125	0.16423
426.805	0.13979	0.0978	0.08842	0.11055	0.10093	0.09105	0.10775	0.15836
433.234	0.13112	0.09134	0.08245	0.10445	0.0949	0.08579	0.10323	0.15362
439.659	0.12436	0.08633	0.07691	0.09815	0.09004	0.08238	0.09967	0.14829
446.079	0.11745	0.08192	0.0719	0.09232	0.0862	0.07914	0.09654	0.14373
452.495	0.11061	0.07609	0.06728	0.08691	0.08124	0.07503	0.09288	0.14006
458.907	0.10561	0.07231	0.06417	0.08254	0.07748	0.07153	0.08968	0.13702
465.315	0.10054	0.06843	0.05982	0.07869	0.07466	0.06841	0.08801	0.13318
471.718	0.09528	0.06515	0.05556	0.07507	0.07193	0.06609	0.08567	0.12925
478.117	0.08983	0.06125	0.05291	0.07169	0.06922	0.06375	0.08288	0.1256
484.511	0.08668	0.05842	0.05109	0.0701	0.06762	0.06283	0.08235	0.12399
490.901	0.08372	0.05715	0.04928	0.06816	0.06616	0.06231	0.08176	0.12213
497.287	0.07717	0.05198	0.04373	0.06315	0.06181	0.05897	0.07818	0.11767
503.668	0.0733	0.04888	0.04161	0.06054	0.0606	0.05769	0.07626	0.11464
510.045	0.07121	0.04803	0.04183	0.05952	0.06201	0.05815	0.07686	0.11425
516.417	0.06798	0.04582	0.03925	0.05879	0.0607	0.05751	0.07647	0.11268
522.784	0.06498	0.04335	0.03772	0.05698	0.05951	0.05702	0.07682	0.11031
529.147	0.0624	0.04192	0.03642	0.05549	0.05942	0.05752	0.07785	0.11074
535.505	0.0607	0.04066	0.03564	0.05471	0.05935	0.05792	0.07868	0.11108
541.859	0.05835	0.03879	0.03477	0.05331	0.05873	0.05808	0.07955	0.11169
548.208	0.05514	0.03665	0.03305	0.05145	0.05768	0.05842	0.08043	0.11275
554.552	0.05292	0.03492	0.03113	0.05002	0.05695	0.05864	0.08192	0.11458
560.892	0.05085	0.03394	0.02992	0.04828	0.05581	0.05864	0.08303	0.11647
567.226	0.04868	0.03276	0.02911	0.04692	0.05458	0.05816	0.08355	0.11795
573.556	0.04639	0.03095	0.02767	0.04512	0.05316	0.05719	0.08374	0.1191
579.881	0.04435	0.0294	0.02607	0.04328	0.0515	0.0565	0.08384	0.12047
586.201	0.0428	0.02834	0.02501	0.04179	0.05039	0.05622	0.08432	0.12249
592.516	0.04083	0.02684	0.02374	0.04013	0.0492	0.05555	0.08488	0.12446
598.827	0.03861	0.02513	0.02219	0.03797	0.04743	0.05438	0.08477	0.12598
605.132	0.03698	0.02384	0.02092	0.03614	0.04588	0.05343	0.0848	0.12763
611.432	0.03575	0.023	0.02001	0.03462	0.0444	0.05276	0.08493	0.1286
617.728	0.03424	0.02194	0.01854	0.03276	0.04203	0.05123	0.0844	0.12795
624.018	0.03248	0.0203	0.01663	0.03049	0.03935	0.04922	0.08345	0.1271
630.303	0.03086	0.01887	0.0151	0.02833	0.03683	0.04723	0.08253	0.1271
636.583	0.02987	0.0182	0.0143	0.02673	0.03465	0.04587	0.08217	0.12849
642.858	0.0288	0.01744	0.01349	0.02519	0.03265	0.04417	0.08261	0.13116
649.128	0.02747	0.01639	0.01254	0.02365	0.03025	0.0419	0.08174	0.13389
655.392	0.02661	0.01557	0.01173	0.0223	0.02814	0.03967	0.0806	0.13519
661.651	0.02524	0.0146	0.0104	0.02044	0.02572	0.03649	0.07862	0.13414
667.905	0.02348	0.0132	0.00884	0.0183	0.02281	0.03243	0.07392	0.12755
674.154	0.02254	0.0126	0.0084	0.01692	0.02104	0.02875	0.06706	0.11396
680.397	0.02197	0.01254	0.00811	0.01608	0.01958	0.02527	0.05922	0.09725
686.635	0.02069	0.01159	0.00691	0.01456	0.01734	0.02156	0.05184	0.08216
692.868	0.01904	0.01038	0.00565	0.01274	0.01525	0.0184	0.04667	0.07136
699.095	0.01861	0.01016	0.00527	0.01179	0.01442	0.0168	0.04428	0.06573
705.317	0.01845	0.00994	0.00502	0.0113	0.01381	0.01603	0.04284	0.06271
711.533	0.01759	0.00905	0.00424	0.01029	0.01267	0.01485	0.04145	0.06037
717.744	0.01762	0.00909	0.00434	0.01011	0.01267	0.01482	0.04146	0.05977
723.949	0.01717	0.00912	0.00419	0.00976	0.01222	0.01447	0.04129	0.05926
730.148	0.01752	0.00971	0.00456	0.00994	0.01218	0.01464	0.04127	0.05884
736.342	0.01783	0.01011	0.00512	0.01004	0.01245	0.015	0.0414	0.05825
742.531	0.01714	0.00984	0.00503	0.00981	0.0122	0.01447	0.04138	0.05732
748.713	0.0171	0.00994	0.00502	0.00972	0.01209	0.01414	0.0416	0.0571
754.89	0.01675	0.00964	0.00466	0.00908	0.01159	0.01352	0.04137	0.05642
761.061	0.01631	0.00922	0.00425	0.00846	0.0109	0.01277	0.04083	0.05525
767.227	0.0148	0.00818	0.00297	0.00727	0.00979	0.01161	0.03944	0.05356
773.387	0.01393	0.00747	0.00254	0.00662	0.00945	0.01142	0.03865	0.05263
779.54	0.01338	0.00666	0.00213	0.00553	0.00862	0.01043	0.03765	0.05117
785.688	0.01183	0.00547	3.69316E-4	0.00416	0.00689	0.00885	0.03613	0.04942
791.831	0.01047	0.00437	-8.80545E-4	0.00334	0.00589	0.00773	0.03541	0.04787
797.967	0.01035	0.00429	-9.25572E-4	0.00299	0.00548	0.0072	0.03489	0.04698
804.097	0.0101	0.00401	-0.00125	0.00232	0.00484	0.00698	0.03405	0.04609
810.221	0.00913	0.00333	-0.00123	0.00201	0.00466	0.00688	0.03379	0.04499
816.34	0.00952	0.00397	-5.76309E-4	0.00283	0.00518	0.00755	0.03434	0.04536
822.452	0.01012	0.00477	-2.09933E-5	0.00353	0.00602	0.00834	0.03521	0.04566
828.558	0.01012	0.00512	4.79525E-4	0.00404	0.00642	0.00849	0.03593	0.04569
834.658	0.01051	0.00542	0.00125	0.00401	0.00618	0.00878	0.03614	0.04579
840.752	0.01066	0.00545	0.00139	0.00407	0.00645	0.0091	0.03639	0.04623
846.84	0.01139	0.00618	0.00193	0.00488	0.00801	0.00978	0.03714	0.0471
852.921	0.01071	0.00567	0.00153	0.00412	0.00708	0.00901	0.03663	0.04576
858.997	0.01045	0.00543	0.00162	0.00376	0.00621	0.00828	0.03602	0.04493
865.066	0.01101	0.00622	0.00204	0.00461	0.00749	0.00943	0.03706	0.04535
871.129	0.01037	0.00594	0.00119	0.00404	0.00733	0.00914	0.03683	0.04526
877.185	0.01107	0.00682	0.00247	0.0051	0.00773	0.00992	0.03743	0.04596
883.235	0.01157	0.00745	0.00332	0.00577	0.00801	0.01061	0.03814	0.04555
889.279	0.01154	0.00751	0.00288	0.00559	0.0082	0.01059	0.03791	0.04521
895.317	0.01227	0.00811	0.00333	0.0064	0.00881	0.01119	0.03829	0.04556
901.348	0.01273	0.00859	0.00423	0.00679	0.00932	0.01127	0.03921	0.04649
907.372	0.01296	0.00945	0.00452	0.00673	0.00966	0.01134	0.03986	0.04615
913.39	0.01406	0.01024	0.00597	0.00818	0.01091	0.01255	0.04051	0.0468
919.402	0.01692	0.01235	0.00913	0.01098	0.01366	0.01527	0.04263	0.04994
925.407	0.02131	0.01693	0.01307	0.01453	0.0178	0.01952	0.04598	0.05328
931.405	0.02712	0.0229	0.01869	0.0201	0.02344	0.0259	0.0516	0.05842
937.397	0.03273	0.02841	0.02525	0.02682	0.02958	0.03226	0.05789	0.06503
943.382	0.04352	0.04	0.0379	0.03923	0.04057	0.04284	0.06945	0.0762
949.36	0.06393	0.06144	0.05803	0.05869	0.06038	0.06258	0.08966	0.09582
955.332	0.08407	0.08124	0.0769	0.07808	0.07904	0.08268	0.10913	0.11422
961.297	0.09501	0.09226	0.08893	0.09001	0.09125	0.09431	0.1203	0.12534
967.255	0.09924	0.09668	0.09291	0.09466	0.0955	0.09875	0.12418	0.12934
973.207	0.09934	0.09734	0.09327	0.09414	0.09572	0.09894	0.12459	0.12932
979.151	0.09647	0.09418	0.08991	0.0912	0.09364	0.09643	0.12278	0.12726
985.089	0.0933	0.09069	0.08681	0.0888	0.09092	0.09338	0.11986	0.124
991.02	0.08948	0.08738	0.08413	0.08534	0.08785	0.0899	0.11606	0.12036
996.944	0.08064	0.08116	0.07892	0.07764	0.08502	0.08306	0.11326	0.11356
1000.172	0.08019	0.079	0.07496	0.07505	0.07722	0.07887	0.10087	0.10928